File: test_thick.csv
Time(sec),Displacement(mm),Load(N),Strain(mm)
0,-0.00407,12741.3,-0.00064
0.0018,-0.00225,12753.6,0.00118
0.1,-0.00274,12733.5,0.00068
0.2,-0.00225,12760.3,0.00118
0.3,-0.00119,12804.5,0.00224
0.4,-0.00046,12894.9,0.00296
0.5,-0.00259,12928.7,0.00084
0.6,-0.00032,12916.7,0.00311
0.7,0.0031,12983.5,0.00653
0.8,0.00195,13032.2,0.00538
0.9,0.00377,13078.8,0.0072
1,0.00452,13113.6,0.00795
1.1,0.00477,13100.5,0.0082
1.2,0.00525,13191,0.00868
1.3,0.00587,13201.4,0.00929
1.4,0.00939,13269.8,0.01282
1.5,0.00909,13326,0.01252
1.6,0.00865,13326.6,0.01208
1.6958,0.0114,13349.7,0.01483
1.7,0.00836,13377.6,0.01179
1.8,0.01196,13370,0.01539
1.9,0.01233,13484.478,0.01576
2,0.01503,13443,0.01846
2.1,0.01388,13558.9,0.01731
2.2,0.01397,13546.2,0.0174
2.3,0.01502,13525.9,0.01845
2.4,0.01652,13611.7,0.01995
2.5,0.01854,13694,0.02197
2.6,0.01701,13655.1,0.02043
2.7,0.01992,13724,0.02335
2.8,0.0192,13808,0.02262
2.9,0.01816,13804.3,0.02159
3,0.01965,13847.2,0.02308
3.1,0.02073,13869.2,0.02416
3.2,0.02308,13919.7,0.0265
3.2808,0.02238,13987.9,0.02581
3.3,0.0243,14017.6,0.02773
3.4,0.0234,14021.8,0.02683
3.5,0.02686,14070.6,0.03029
3.6,0.02638,14116.9,0.02981
3.7,0.02571,14138,0.02914
3.8,0.02891,14169.6,0.03234
3.9,0.02938,14157.1,0.03281
4,0.0306,14243.7,0.03402
4.1,0.02857,14330.9,0.032
4.2,0.02999,14296,0.03342
4.3,0.03294,14317.8,0.03637
4.4,0.03215,14457.1,0.03558
4.5,0.03254,14456.5,0.03596
4.6,0.03434,14522.6,0.03777
4.7,0.03455,14486.1,0.03798
4.8,0.03717,14554.5,0.0406
4.8758,0.03439,14594.8,0.03781
4.9,0.03724,14613.4,0.04067
5,0.03797,14702.3,0.0414
5.1,0.03654,14659.6,0.03997
5.2,0.03653,14664.4,0.03996
5.3,0.04138,14764.1,0.04481
5.4,0.04257,14826.7,0.046
5.5,0.0434,14853.3,0.04683
5.6,0.04341,14948.1,0.04684
5.7,0.04332,14919.3,0.04675
5.8,0.04472,14932.5,0.04815
5.9,0.0441,15021.9,0.04753
6,0.04503,15042.2,0.04845
6.1,0.04813,15135.6,0.05156
6.2,0.04722,15048.2,0.05064
6.3,0.04773,15099.7,0.05115
6.4,0.05069,15230,0.05412
6.5,0.04804,15190.3,0.05147
6.5308,0.05085,15233.2,0.05428
6.6,0.05194,15242.6,0.05537
6.7,0.05354,15314.8,0.05697
6.8,0.05119,15357.9,0.05462
6.9,0.05249,15388,0.05592
7,0.05492,15411.5,0.05835
7.1,0.05665,15483.5,0.06008
7.2,0.05748,15506.7,0.06091
7.3,0.05625,15510.1,0.05968
7.4,0.05746,15601.7,0.06089
7.5,0.05882,15627,0.06225
7.6,0.05911,15617.5,0.06254
7.7,0.06168,15704.5,0.06511
7.8,0.05876,15749.8,0.06219
7.9,0.06243,15720.9,0.06586
8,0.06331,15862.3,0.06674
8.1,0.06409,15821.8,0.06752
8.1328,0.06486,15876.7,0.06829
8.2,0.06481,15856.9,0.06824
8.3,0.06749,15956,0.07092
8.4,0.06425,15946.7,0.06768
8.5,0.06568,15954.8,0.06911
8.6,0.06832,16065.1,0.07175
8.7,0.06822,16102.8,0.07165
8.8,0.07305,16113.7,0.07647
8.9,0.07143,16175.7,0.07486
9,0.07021,16166,0.07364
9.1,0.07367,16261.9,0.0771
9.2,0.07293,16273,0.07636
9.3,0.07204,16327.7,0.07547
9.4,0.07553,16306.9,0.07896
9.5,0.07774,16405.8,0.08117
9.6,0.07423,16435.4,0.07765
9.7,0.07656,16407,0.07999
9.7608,0.07508,16476.6,0.07851
9.8,0.07959,16555,0.08302
9.9,0.07955,16558.1,0.08298
10,0.07803,16597.1,0.08146
10.1,0.08046,16633.3,0.08389
10.2,0.08362,16683.1,0.08705
10.3,0.08225,16733.3,0.08567
10.4,0.08231,16774.4,0.08574
10.5,0.08439,16746.6,0.08782
10.6,0.08477,16851.8,0.0882
10.7,0.08445,16912.3,0.08788
10.8,0.08632,16893.1,0.08975
10.9,0.0861,16908.2,0.08953
11,0.08787,17019,0.0913
11.1,0.0873,16962,0.09073
11.2,0.08925,17075.9,0.09267
11.3,0.08841,17084.7,0.09184
11.3108,0.09084,17120.2,0.09427
11.4,0.0884,17111.9,0.09183
11.5,0.08918,17137.1,0.09261
11.6,0.09283,17175.3,0.09626
11.7,0.09422,17243.3,0.09765
11.8,0.09714,17278.8,0.10057
11.9,0.09487,17362.1,0.0983
12,0.09483,17369.2,0.09826
12.1,0.09654,17442.2,0.09997
12.2,0.09677,17494.6,0.10019
12.3,0.09826,17422.8,0.10169
12.4,0.09893,17512.7,0.10236
12.5,0.10098,17602.8,0.1044
12.6,0.09994,17613.7,0.10337
12.7,0.10414,17641.8,0.10757
12.8,0.10122,17658.2,0.10465
12.9,0.10176,17724.7,0.10519
12.9208,0.10201,17712.3,0.10544
13,0.10239,17713.2,0.10582
13.1,0.1063,17823.3,0.10972
13.2,0.10399,17798.5,0.10742
13.3,0.10707,17820.5,0.1105
13.4,0.10853,17892.1,0.11196
13.5,0.10955,17924.5,0.11298
13.6,0.1103,17976.9,0.11373
13.7,0.11168,18064.8,0.11511
13.8,0.10929,18025.4,0.11272
13.9,0.11174,18118.7,0.11517
14,0.111,18143.5,0.11443
14.1,0.1128,18127.8,0.11622
14.2,0.11554,18275.4,0.11897
14.3,0.11625,18274.2,0.11968
14.4,0.11588,18306.1,0.11931
14.5,0.11623,18366.7,0.11966
14.5928,0.11574,18383.7,0.11917
14.6,0.11681,18409.3,0.12024
14.7,0.116,18414.9,0.11943
14.8,0.12163,18440.4,0.12506
14.9,0.12093,18558.7,0.12436
15,0.12224,18566.9,0.12567
15.1,0.12364,18609.9,0.12707
15.2,0.12272,18628.4,0.12615
15.3,0.12358,18708.8,0.12701
15.4,0.1231,18661.3,0.12653
15.5,0.12635,18740.4,0.12978
15.6,0.1276,18754.3,0.13103
15.7,0.12614,18851,0.12956
15.8,0.12736,18840.5,0.13079
15.9,0.12791,18961.4,0.13134
16,0.12827,18971.5,0.1317
16.0408,0.13001,18982.3,0.13344
16.1,0.13002,18942.6,0.13344
16.2,0.13174,19008.1,0.13517
16.3,0.13067,19101.5,0.1341
16.4,0.13229,19117.4,0.13572
16.5,0.13616,19164.2,0.13959
16.6,0.13297,19173.5,0.1364
16.7,0.13443,19186.2,0.13786
16.8,0.13406,19229.9,0.13749
16.9,0.13645,19314.9,0.13988
17,0.13787,19381.1,0.1413
17.1,0.13663,19387.8,0.14006
17.2,0.13999,19420.5,0.14342
17.3,0.13926,19473.5,0.14269
17.4,0.14025,19471.5,0.14368
17.5,0.14286,19526.4,0.14629
17.6,0.1424,19592.9,0.14583
17.6908,0.14201,19592.3,0.14543
17.7,0.14261,19652.8,0.14604
17.8,0.1463,19637.2,0.14973
17.9,0.14715,19711.1,0.15058
18,0.14602,19671.7,0.14945
18.1,0.14555,19743,0.14897
18.2,0.14778,19815.2,0.15121
18.3,0.14748,19787.1,0.15091
18.4,0.14997,19931.4,0.1534
18.5,0.15037,19938.7,0.1538
18.6,0.15105,19953.4,0.15448
18.7,0.15194,20019.6,0.15537
18.8,0.15335,20088.2,0.15678
18.9,0.15294,20016.8,0.15637
19,0.15421,20053,0.15764
19.1,0.15467,20138.7,0.1581
19.2,0.15735,20240.5,0.16078
19.3,0.15641,20215.8,0.15984
19.3338,0.15579,20248.7,0.15922
19.4,0.15735,20253.3,0.16078
19.5,0.1583,20338.5,0.16173
19.6,0.1599,20356.2,0.16333
19.7,0.16042,20386.4,0.16385
19.8,0.15846,20394.8,0.16189
19.9,0.16176,20415.7,0.16519
20,0.16375,20506.8,0.16718
20.1,0.1636,20533.6,0.16703
20.2,0.16273,20562.5,0.16616
20.3,0.16461,20630.1,0.16804
20.4,0.16543,20666.6,0.16886
20.5,0.16564,20648.5,0.16906
20.6,0.16651,20686.3,0.16994
20.7,0.16914,20745.2,0.17257
20.8,0.17028,20807.8,0.17371
20.9,0.1689,20869.3,0.17233
20.9108,0.17233,20884,0.17576
21,0.1705,20869.7,0.17393
21.1,0.17275,20906.5,0.17618
21.2,0.17201,20951.7,0.17544
21.3,0.17592,21040.4,0.17935
21.4,0.17217,21043.4,0.1756
21.5,0.17395,21116.6,0.17738
21.6,0.17408,21079.7,0.17751
21.7,0.17852,21173.7,0.18195
21.8,0.17558,21218.9,0.17901
21.9,0.178,21183,0.18143
22,0.17879,21215.6,0.18222
22.1,0.17919,21374.9,0.18262
22.2,0.18034,21354.2,0.18377
22.3,0.18192,21394.5,0.18535
22.4,0.18473,21468.1,0.18816
22.5,0.18285,21511.3,0.18627
22.5308,0.18401,21464.6,0.18744
22.6,0.18368,21493.1,0.18711
22.7,0.18562,21497.5,0.18905
22.8,0.18617,21602.6,0.1896
22.9,0.18703,21625.8,0.19046
23,0.18855,21664.1,0.19198
23.1,0.18835,21728.8,0.19178
23.2,0.18922,21683.1,0.19265
23.3,0.18861,21820.8,0.19204
23.4,0.19012,21782.8,0.19355
23.5,0.19154,21884.3,0.19497
23.6,0.19325,21855.5,0.19668
23.7,0.19615,21918.8,0.19958
23.8,0.19442,22009.6,0.19784
23.9,0.19321,21964.6,0.19664
24,0.19729,22046.9,0.20071
24.1,0.19559,22117.6,0.19902
24.1108,0.19963,22070.4,0.20306
24.2,0.19487,22035.7,0.1983
24.3,0.19768,22097.8,0.20111
24.4,0.1982,22172.8,0.20163
24.5,0.19903,22226.9,0.20246
24.6,0.20212,22279.6,0.20555
24.7,0.20223,22329.5,0.20566
24.8,0.20434,22315.4,0.20777
24.9,0.20454,22392.5,0.20797
25,0.20558,22365.9,0.20901
25.1,0.20532,22502.1,0.20875
25.2,0.20513,22497.6,0.20856
25.3,0.20947,22553.9,0.2129
25.4,0.20524,22518.1,0.20867
25.5,0.2086,22519.1,0.21202
25.6,0.20953,22555.8,0.21296
25.7,0.21075,22664.1,0.21418
25.8,0.20986,22681.8,0.21328
25.9,0.21029,22727.9,0.21372
26,0.21219,22729.7,0.21562
26.0408,0.21233,22731.1,0.21576
26.1,0.21199,22815.7,0.21542
26.2,0.2134,22838.1,0.21683
26.3,0.21546,22818.2,0.21889
26.4,0.21577,22886.6,0.21919
26.5,0.21673,22843.5,0.22016
26.6,0.22042,22946.1,0.22384
26.7,0.21915,23001,0.22257
26.8,0.21773,22980.7,0.22116
26.9,0.21932,23013.6,0.22274
27,0.22218,23076.9,0.22561
27.1,0.222,23142.7,0.22543
27.2,0.22139,23178.2,0.22482
27.3,0.22312,23141.8,0.22655
27.4,0.22356,23257.4,0.22699
27.5,0.22572,23275.2,0.22915
27.6,0.22638,23251.3,0.22981
27.7,0.22568,23378.4,0.22911
27.8,0.22718,23385.3,0.23061
27.8128,0.22907,23401.4,0.2325
27.9,0.22608,23319.5,0.22951
28,0.22905,23426.9,0.23248
28.1,0.23004,23481.7,0.23347
28.2,0.23078,23473.382,0.23421
28.3,0.23143,23461.8,0.23486
28.4,0.23282,23582,0.23624
28.5,0.23194,23629.1,0.23537
28.6,0.23302,23609.6,0.23645
28.7,0.23464,23606.4,0.23807
28.8,0.23663,23688.2,0.24006
28.9,0.23636,23725,0.23979
29,0.23652,23732.4,0.23995
29.1,0.23808,23790.5,0.24151
29.2,0.23788,23773.4,0.2413
29.3,0.24036,23830.1,0.24379
29.4,0.2398,23842.6,0.24323
29.5,0.24054,23872.6,0.24397
29.6,0.24434,23951.1,0.24777
29.7,0.24147,23912.3,0.2449
29.7758,0.24341,23992.8,0.24684
29.8,0.2443,24017.6,0.24772
29.9,0.24577,24058,0.2492
30,0.24454,24014.5,0.24797
30.1,0.24521,23994.2,0.24864
30.2,0.24907,24146.3,0.2525
30.3,0.24793,24113.3,0.25135
30.4,0.24948,24184,0.25291
30.5,0.25013,24229.6,0.25356
30.6,0.25014,24256.4,0.25357
30.7,0.25455,24273.1,0.25798
30.8,0.25373,24288.9,0.25716
30.9,0.25173,24275.2,0.25516
31,0.25511,24293.4,0.25854
31.1,0.25639,24345.8,0.25982
31.2,0.25633,24424.8,0.25976
31.3,0.25501,24429.1,0.25844
31.4,0.25666,24425.9,0.26009
31.5,0.25969,24514.9,0.26312
31.6,0.25812,24540.6,0.26155
31.7,0.25838,24513.8,0.26181
31.8,0.25934,24587.3,0.26277
31.9,0.26139,24611.1,0.26482
31.9808,0.26231,24590,0.26574
32,0.26258,24651.2,0.26601
32.1,0.26302,24667.6,0.26645
32.2,0.2634,24740.8,0.26683
32.3,0.26483,24728.1,0.26826
32.4,0.26557,24783.9,0.269
32.5,0.26784,24764.6,0.27127
32.6,0.2675,24851.1,0.27093
32.7,0.26989,24875.3,0.27332
32.8,0.2679,24887.8,0.27133
32.9,0.27067,24946.1,0.2741
33,0.27031,24929.6,0.27374
33.1,0.27207,24973.9,0.2755
33.2,0.27422,25005.7,0.27765
33.3,0.27536,25053.3,0.27879
33.4,0.27231,25040.1,0.27574
33.5,0.27369,25096.6,0.27712
33.6,0.27426,25087.2,0.27769
33.7,0.27498,25127.7,0.27841
33.8,0.27854,25216.2,0.28197
33.9,0.27891,25220.1,0.28233
33.9488,0.28054,25243.6,0.28397
34,0.27896,25167.6,0.28239
34.1,0.2811,25267.3,0.28453
34.2,0.28211,25328.3,0.28554
34.3,0.28137,25274.9,0.2848
34.4,0.28231,25384.3,0.28574
34.5,0.28312,25396.8,0.28654
34.6,0.28375,25359.2,0.28718
34.7,0.28688,25430.3,0.29031
34.8,0.28597,25472.6,0.2894
34.9,0.28637,25439.8,0.2898
35,0.28674,25540.1,0.29017
35.1,0.28769,25558.3,0.29112
35.2,0.28636,25560.8,0.28979
35.3,0.28981,25586.3,0.29324
35.4,0.29127,25673,0.2947
35.5,0.28954,25640.6,0.29296
35.6,0.29178,25682.7,0.29521
35.7,0.29232,25734.8,0.29574
35.8,0.29241,25753.4,0.29583
35.9,0.29652,25718.2,0.29995
36,0.29856,25795,0.30199
36.1,0.29624,25842.6,0.29967
36.1708,0.29649,25863.7,0.29992
36.2,0.29936,25874.1,0.30279
36.3,0.3002,25884.2,0.30363
36.4,0.29799,25854.8,0.30142
36.5,0.30006,25880.5,0.30349
36.6,0.30082,25953.6,0.30425
36.7,0.30046,26006.7,0.30389
36.8,0.3014,25992.8,0.30483
36.9,0.30356,26014.9,0.30699
37,0.30482,26114.6,0.30824
37.1,0.30431,26052.6,0.30774
37.2,0.3056,26187.3,0.30903
37.3,0.30474,26151,0.30817
37.4,0.30507,26174.6,0.3085
37.5,0.30902,26210,0.31245
37.6,0.30817,26303.5,0.3116
37.7,0.30855,26285.6,0.31198
37.8,0.31214,26264.8,0.31557
37.9,0.31216,26333.2,0.31559
38,0.31304,26334.7,0.31647
38.1,0.31317,26342.3,0.3166
38.2,0.31423,26445.7,0.31766
38.3,0.31474,26418.9,0.31817
38.4,0.31473,26447.3,0.31816
38.4438,0.31604,26495.1,0.31946
38.5,0.31796,26464.3,0.32139
38.6,0.31668,26567.8,0.32011
38.7,0.31739,26514.8,0.32081
38.8,0.31877,26469.7,0.3222
38.9,0.32124,26580,0.32467
39,0.3208,26647,0.32423
39.1,0.32144,26655.7,0.32487
39.2,0.32345,26666,0.32688
39.3,0.32026,26716.5,0.32369
39.4,0.32065,26714.5,0.32408
39.5,0.32257,26724.5,0.326
39.6,0.32477,26769.1,0.3282
39.7,0.32707,26789.9,0.3305
39.8,0.3262,26850.9,0.32963
39.9,0.32772,26904.3,0.33115
40,0.3287,26907.6,0.33212
40.1,0.32749,26839.5,0.33092
40.2,0.32845,26927.8,0.33187
40.3,0.33166,26982.5,0.33508
40.4,0.33247,27030.7,0.3359
40.5,0.33289,26970.9,0.33632
40.6,0.33441,27081.8,0.33784
40.7,0.33471,27054.2,0.33814
40.7288,0.33601,27141.4,0.33944
40.8,0.33537,27055.8,0.33879
40.9,0.33667,27145.4,0.3401
41,0.33731,27097.5,0.34073
41.1,0.33995,27183.3,0.34338
41.2,0.33723,27175,0.34066
41.3,0.33796,27180.9,0.34139
41.4,0.34072,27295.1,0.34415
41.5,0.34246,27306.2,0.34589
41.6,0.34047,27335,0.3439
41.7,0.34171,27293.7,0.34514
41.8,0.34574,27409.5,0.34917
41.9,0.3436,27337.1,0.34703
42,0.34492,27351.3,0.34835
42.1,0.34697,27438.6,0.3504
42.2,0.3463,27462,0.34973
42.3,0.34875,27470.1,0.35218
42.4,0.35056,27552,0.35398
42.5,0.35047,27524.4,0.3539
42.6,0.3509,27599.3,0.35433
42.7,0.35178,27580.6,0.35521
42.8,0.35154,27568.4,0.35497
42.9,0.35519,27656.6,0.35862
43,0.35445,27693.9,0.35788
43.1,0.35364,27668.1,0.35707
43.1538,0.35561,27733.8,0.35904
43.2,0.35768,27662.5,0.36111
43.3,0.3568,27767.7,0.36023
43.4,0.35727,27724.2,0.3607
43.5,0.35989,27777.3,0.36332
43.6,0.361,27813.1,0.36443
43.7,0.36016,27784.6,0.36359
43.8,0.3625,27888.4,0.36593
43.9,0.36027,27862.7,0.36369
44,0.36292,27926.3,0.36635
44.1,0.36341,27945.7,0.36684
44.2,0.36293,27903.3,0.36636
44.3,0.36417,28011.1,0.3676
44.4,0.36582,28051.1,0.36925
44.5,0.36544,28009.5,0.36887
44.6,0.36712,28047.4,0.37055
44.7,0.36652,28066.9,0.36995
44.8,0.36786,28065.7,0.37129
44.9,0.36911,28122.1,0.37254
45,0.37283,28190.2,0.37626
45.1,0.37116,28151.3,0.37458
45.2,0.37259,28189.4,0.37601
45.3,0.37479,28263.5,0.37822
45.4,0.37569,28283,0.37912
45.5,0.37668,28299.1,0.38011
45.6,0.37656,28306.9,0.37998
45.7,0.37619,28321.7,0.37962
45.8,0.37706,28301.5,0.38048
45.8658,0.37791,28345.7,0.38133
45.9,0.37802,28400.4,0.38145
46,0.37835,28368.6,0.38178
46.1,0.37973,28379.8,0.38316
46.2,0.38068,28452.6,0.38411
46.3,0.38199,28449.5,0.38542
46.4,0.38264,28484.4,0.38606
46.5,0.38542,28523.8,0.38884
46.6,0.38458,28577.2,0.388
46.7,0.3842,28552.4,0.38763
46.8,0.38574,28581.4,0.38917
46.9,0.38629,28587.5,0.38972
47,0.38711,28640.4,0.39054
47.1,0.38559,28595.7,0.38902
47.2,0.39103,28678.4,0.39446
47.3,0.39134,28754.2,0.39477
47.4,0.389,28709.9,0.39243
47.5,0.39448,28764.7,0.39791
47.6,0.39344,28792,0.39686
47.7,0.39357,28782.3,0.397
47.8,0.39189,28827.5,0.39532
47.9,0.39511,28821.5,0.39854
48,0.39596,28822.6,0.39939
48.1,0.39575,28861.5,0.39918
48.2,0.39732,28927,0.40075
48.3,0.39754,28931.1,0.40097
48.4,0.39876,28941.8,0.40218
48.5,0.39882,28938.4,0.40225
48.5958,0.40197,28995.1,0.4054
48.6,0.40241,29039.5,0.40584
48.7,0.40106,28976.053,0.40449
48.8,0.40396,29009.8,0.40739
48.9,0.4039,29049.8,0.40732
49,0.40247,29019.4,0.40589
49.1,0.40418,29056.5,0.40761
49.2,0.40539,29114.3,0.40882
49.3,0.40632,29189.7,0.40975
49.4,0.40668,29182.3,0.41011
49.5,0.41073,29206.3,0.41416
49.6,0.4101,29207.9,0.41353
49.7,0.40755,29179.2,0.41098
49.8,0.41272,29193,0.41615
49.9,0.4102,29189.9,0.41363
50,0.41243,29286,0.41586
50.1,0.41053,29286.4,0.41396
50.2,0.41408,29273,0.41751
50.3,0.41541,29395.6,0.41884
50.4,0.41528,29327.9,0.41871
50.5,0.41763,29397.4,0.42106
50.6,0.41946,29390.6,0.42289
50.7,0.41501,29429,0.41844
50.8,0.41912,29424.2,0.42255
50.9,0.42099,29505.3,0.42442
51,0.41884,29484.4,0.42226
51.1,0.42239,29435.9,0.42582
51.2,0.42293,29558.6,0.42636
51.3,0.42314,29572.1,0.42657
51.4,0.42475,29494.2,0.42817
51.5,0.42466,29611.6,0.42809
51.5958,0.42534,29598.8,0.42876
51.6,0.42766,29633.3,0.43109
51.7,0.42435,29601.5,0.42778
51.8,0.42857,29668.9,0.432
51.9,0.42791,29630.8,0.43134
52,0.42987,29711.7,0.4333
52.1,0.43017,29744.3,0.4336
52.2,0.43092,29699.7,0.43435
52.3,0.4324,29785,0.43583
52.4,0.43254,29759.6,0.43597
52.5,0.43389,29832.1,0.43732
52.6,0.43419,29818.1,0.43762
52.7,0.43464,29828.1,0.43807
52.8,0.43647,29801.2,0.4399
52.9,0.43784,29942.9,0.44127
53,0.43809,29902.3,0.44151
53.1,0.43794,29867.9,0.44137
53.2,0.44111,29915.4,0.44454
53.3,0.44052,29972.6,0.44395
53.4,0.43895,29920.5,0.44238
53.5,0.44347,29980.6,0.4469
53.6,0.44413,30064.7,0.44756
53.7,0.44324,29975.6,0.44666
53.8,0.44329,30055.1,0.44672
53.9,0.44568,30058.7,0.4491
54,0.44698,30156.6,0.45041
54.1,0.44455,30122.7,0.44798
54.2,0.44666,30067.3,0.45009
54.3,0.44807,30129,0.4515
54.4,0.44904,30136.7,0.45247
54.4758,0.44957,30205.5,0.45299
54.5,0.45081,30213.7,0.45424
54.6,0.45087,30226.3,0.4543
54.7,0.45086,30268.3,0.45429
54.8,0.4527,30232.8,0.45613
54.9,0.45593,30278.4,0.45936
55,0.45255,30227.5,0.45598
55.1,0.4537,30246.4,0.45712
55.2,0.45491,30295.5,0.45834
55.3,0.45628,30368.4,0.45971
55.4,0.46049,30361.4,0.46392
55.5,0.45898,30392.6,0.46241
55.6,0.45625,30385.7,0.45968
55.7,0.45976,30473.3,0.46319
55.8,0.45827,30359.1,0.4617
55.9,0.46053,30399.2,0.46396
56,0.46301,30491.8,0.46644
56.1,0.46297,30512.4,0.4664
56.2,0.46384,30463.8,0.46727
56.3,0.46391,30496.1,0.46734
56.4,0.46678,30554.4,0.47021
56.5,0.46641,30582,0.46984
56.6,0.46745,30557.2,0.47088
56.7,0.46704,30620.8,0.47046
56.8,0.46746,30553.4,0.47088
56.9,0.47178,30675.5,0.47521
57,0.46923,30666.2,0.47266
57.1,0.47287,30680.1,0.4763
57.2,0.47019,30723.1,0.47362
57.3,0.47245,30678.2,0.47588
57.4,0.47722,30746.3,0.48065
57.5,0.47717,30737.4,0.4806
57.6,0.47666,30691.7,0.48008
57.7,0.47674,30767.6,0.48017
57.8,0.4781,30828.7,0.48153
57.9,0.47936,30837.6,0.48278
58,0.47782,30817.9,0.48125
58.1,0.48154,30813,0.48497
58.1838,0.48237,30859.4,0.4858
58.2,0.4813,30872.2,0.48473
58.3,0.48014,30812.1,0.48357
58.4,0.48295,30848.4,0.48638
58.5,0.48278,30891,0.48621
58.6,0.48681,30928.5,0.49024
58.7,0.48399,30867,0.48742
58.8,0.48583,30947.7,0.48926
58.9,0.48486,30970.5,0.48829
59,0.48882,30938.2,0.49225
59.1,0.4879,31044.2,0.49133
59.2,0.48819,31011.3,0.49162
59.3,0.48923,30996.1,0.49265
59.4,0.49237,31063.7,0.4958
59.5,0.49121,31103,0.49464
59.6,0.49256,31061.5,0.49599
59.7,0.49379,31046.3,0.49722
59.8,0.49337,31065.8,0.4968
59.9,0.49683,31157.8,0.50026
60,0.49545,31190.5,0.49888
60.1,0.49563,31094.8,0.49906
60.2,0.50102,31178.3,0.50445
60.3,0.4992,31216.5,0.50263
60.4,0.49691,31217.5,0.50033
60.5,0.49951,31168.7,0.50294
60.6,0.49988,31266.2,0.50331
60.7,0.50214,31223,0.50557
60.8,0.50126,31216.8,0.50469
60.9,0.50414,31297.8,0.50757
61,0.50204,31301.7,0.50547
61.1,0.5034,31255.4,0.50683
61.2,0.50539,31347.9,0.50882
61.3,0.50694,31325.1,0.51037
61.4,0.50748,31388.5,0.51091
61.5,0.50747,31325.5,0.5109
61.6,0.50883,31377,0.51226
61.7,0.50899,31452,0.51242
61.8,0.50771,31365.5,0.51114
61.9,0.51152,31382.5,0.51494
62,0.51219,31471.9,0.51562
62.1,0.51491,31487,0.51834
62.2,0.51452,31489,0.51795
62.3,0.51469,31450.7,0.51812
62.3558,0.51515,31479.1,0.51858
62.4,0.51481,31514.8,0.51823
62.5,0.51613,31525.5,0.51956
62.6,0.51614,31538.8,0.51957
62.7,0.51836,31593.4,0.52179
62.8,0.51885,31535.8,0.52228
62.9,0.52084,31545.2,0.52427
63,0.52207,31599,0.52549
63.1,0.5217,31638.5,0.52513
63.2,0.52362,31655.55,0.52705
63.3,0.52263,31664.6,0.52606
63.4,0.52536,31656.6,0.52878
63.5,0.52365,31679.4,0.52708
63.6,0.52487,31641.4,0.5283
63.7,0.5261,31755.6,0.52953
63.8,0.52791,31724.5,0.53134
63.9,0.52981,31757.8,0.53324
64,0.52791,31734.2,0.53134
64.1,0.53011,31740,0.53354
64.2,0.52978,31794.9,0.53321
64.3,0.53283,31793.8,0.53626
64.4,0.53279,31738.6,0.53622
64.5,0.53508,31821.6,0.53851
64.6,0.53288,31793.3,0.53631
64.7,0.53667,31855.2,0.54009
64.8,0.53658,31886,0.54001
64.9,0.53381,31891,0.53724
65,0.53912,31869.4,0.54254
65.1,0.53973,31873.2,0.54316
65.2,0.54045,31899.5,0.54388
65.3,0.53919,31887.5,0.54262
65.4,0.54183,31948.5,0.54526
65.5,0.54324,31932.4,0.54667
65.6,0.54337,31981.1,0.5468
65.7,0.54225,31845.5,0.54568
65.79999,0.54464,31945.6,0.54807
65.9,0.54557,31992.2,0.549
66,0.54511,31973.8,0.54853
66.1,0.54828,32001.2,0.55171
66.2,0.54785,32060.8,0.55128
66.29999,0.55011,32056.9,0.55354
66.4,0.54952,31989.8,0.55295
66.5,0.54981,32097.5,0.55324
66.6,0.55248,32061.8,0.55591
66.7,0.55227,32069.8,0.5557
66.79999,0.55253,32102,0.55595
66.9,0.55285,32042.4,0.55628
66.9758,0.55455,32088.9,0.55798
67,0.55383,32097.3,0.55726
67.1,0.55582,32172.4,0.55925
67.2,0.5538,32108.5,0.55722
67.29999,0.55771,32066.6,0.56114
67.4,0.55878,32194.9,0.56221
67.5,0.55817,32146.5,0.5616
67.6,0.56108,32154.8,0.56451
67.7,0.56107,32182.1,0.5645
67.79999,0.56127,32184,0.5647
67.9,0.56317,32182.6,0.5666
68,0.56127,32230.2,0.5647
68.1,0.56249,32242.1,0.56591
68.2,0.5621,32258.3,0.56553
68.29999,0.56419,32181.4,0.56762
68.4,0.56696,32297.5,0.57039
68.5,0.56461,32220.4,0.56804
68.6,0.56891,32288.6,0.57233
68.7,0.56953,32303.7,0.57296
68.79999,0.56933,32237.5,0.57276
68.9,0.57069,32325.8,0.57412
69,0.57012,32318.8,0.57355
69.1,0.5728,32397.6,0.57623
69.2,0.57063,32287.7,0.57406
69.29999,0.57356,32378.7,0.57699
69.4,0.57227,32358.9,0.5757
69.5,0.57295,32301,0.57638
69.6,0.57701,32386.2,0.58043
69.7,0.57587,32439.8,0.5793
69.79999,0.57643,32352.1,0.57986
69.9,0.57725,32420.1,0.58068
70,0.5776,32414.4,0.58103
70.1,0.5796,32477.1,0.58303
70.2,0.57806,32402.7,0.58149
70.29999,0.58228,32451.8,0.58571
70.4,0.58134,32486.4,0.58477
70.5,0.58427,32433.2,0.58769
70.6,0.5849,32535.3,0.58833
70.7,0.58298,32515.2,0.58641
70.79999,0.58595,32490.1,0.58938
70.9,0.58704,32566.607,0.59047
71,0.58945,32546.6,0.59288
71.1,0.58672,32526.9,0.59015
71.2,0.58912,32561.9,0.59255
71.29999,0.59067,32614.4,0.5941
71.4,0.59426,32533.3,0.59769
71.5,0.59278,32591.2,0.59621
71.6,0.59134,32547.3,0.59477
71.7,0.59168,32552.4,0.59511
71.79999,0.59506,32632.3,0.59849
71.9,0.59634,32665,0.59976
72,0.59583,32622.4,0.59926
72.1,0.59652,32642.3,0.59995
72.2,0.59883,32654,0.60226
72.29999,0.5983,32607.6,0.60173
72.4,0.59769,32704.5,0.60112
72.5,0.60148,32702.7,0.60491
72.6,0.60263,32667.8,0.60606
72.7,0.60073,32738.4,0.60416
72.79999,0.60205,32689.3,0.60548
72.9,0.60381,32726.9,0.60724
73,0.60489,32704.1,0.60832
73.0308,0.60529,32725.3,0.60872
73.1,0.60573,32694,0.60916
73.2,0.60628,32766.7,0.60971
73.29999,0.60765,32727.7,0.61107
73.4,0.60773,32801.7,0.61116
73.5,0.60735,32794.3,0.61078
73.6,0.60938,32784,0.61281
73.7,0.60915,32765.4,0.61258
73.79999,0.61114,32819,0.61457
73.9,0.612,32754.5,0.61543
74,0.61441,32764.4,0.61784
74.1,0.61294,32781.9,0.61637
74.2,0.61458,32866.1,0.61801
74.29999,0.61211,32733.8,0.61554
74.4,0.61796,32808.3,0.62139
74.5,0.61491,32734.6,0.61833
74.6,0.61569,32774.9,0.61912
74.7,0.61729,32670.3,0.62072
74.79999,0.61895,32780.9,0.62238
74.9,0.61854,32783.1,0.62196
75,0.62073,32802.9,0.62416
75.1,0.62111,32808.3,0.62454
75.2,0.62101,32787.7,0.62444
75.29999,0.62301,32796.1,0.62643
75.4,0.62469,32795.8,0.62812
75.5,0.62447,32877.6,0.6279
75.6,0.62627,32818.6,0.6297
75.7,0.62556,32771.6,0.62899
75.79999,0.62936,32818.4,0.63279
75.9,0.63046,32861.2,0.63389
76,0.62881,32829.5,0.63224
76.1,0.63035,32824.2,0.63377
76.2,0.63262,32829.5,0.63605
76.29999,0.63181,32863,0.63524
76.4,0.63286,32870.5,0.63629
76.5,0.63338,32897.3,0.63681
76.6,0.63298,32861.7,0.63641
76.7,0.63485,32886.2,0.63828
76.79999,0.63708,32822.3,0.64051
76.9,0.63517,32931,0.6386
77,0.63784,32915,0.64127
77.1,0.63884,32896.9,0.64227
77.2,0.64004,32967.2,0.64347
77.29999,0.63896,32924.6,0.64238
77.4,0.63989,32900,0.64331
77.5,0.6421,32988.3,0.64553
77.6,0.64255,32966.1,0.64598
77.7,0.64539,32986.6,0.64882
77.79999,0.64478,32981.9,0.6482
77.9,0.64549,33002.3,0.64892
78,0.64663,32960.5,0.65006
78.1,0.64332,32993.2,0.64675
78.2,0.64619,32988.1,0.64962
78.29999,0.64906,33000.5,0.65249
78.4,0.64904,33017.5,0.65247
78.5,0.65134,33009.4,0.65477
78.6,0.6506,33054.7,0.65403
78.7,0.65305,33080.1,0.65648
78.79999,0.65168,33097.7,0.65511
78.9,0.65308,33041.9,0.65651
79,0.65291,33106.9,0.65634
79.1,0.65376,33059.5,0.65719
79.2,0.6563,33094.9,0.65973
79.29999,0.65537,33144.6,0.6588
79.4,0.65788,33040.7,0.66131
79.5,0.66052,33100.8,0.66395
79.5888,0.7128,10712.3,0.71623
79.5898,0.73015,10189.8,0.73358
79.5908,0.67893,16202.2,0.68236
79.5918,0.68192,13564.8,0.68535
79.5928,0.71136,11026.9,0.71479
79.5938,0.71085,9951.89,0.71428
79.5948,0.68209,13716.6,0.68552
79.5958,0.67332,13881.8,0.67675
79.5968,0.69457,11159.2,0.698
79.5978,0.69788,8692.32,0.7013
79.5988,0.67864,14346.5,0.68207
79.5998,0.66825,12846.9,0.67168
79.6,0.66696,12168.7,0.67039
79.6008,0.6799,9778.92,0.68333
79.6018,0.68766,10000.9,0.69108
79.6028,0.67008,13156.3,0.67351
79.6038,0.65728,12355,0.6607
79.6048,0.67133,9841.59,0.67476
79.6058,0.67897,9961.43,0.68239
79.6068,0.66563,11678.1,0.66906
79.6078,0.65514,13058,0.65857
79.6088,0.66577,10295.8,0.6692
79.6098,0.67487,8876.44,0.6783
79.6108,0.66672,11240.8,0.67015
79.6118,0.65441,13083.2,0.65784
79.6128,0.66005,10496,0.66348
79.6138,0.66789,9150.39,0.67132
79.6148,0.66478,10844.3,0.66821
79.6158,0.65329,12035.6,0.65672
79.6168,0.65728,10999.1,0.6607
79.6178,0.66486,9858.1,0.66829
79.6188,0.66217,10415,0.6656
79.6198,0.65763,11440.7,0.66106
79.6208,0.65487,10876,0.6583
79.6218,0.65983,10240,0.66326
79.6228,0.66008,10803.5,0.66351
79.6268,0.66052,11346.2,0.66395
79.6278,0.65707,11373.3,0.6605
79.6288,0.65848,10076.8,0.66191
79.6298,0.66067,10041.1,0.6641
79.6308,0.6588,11243.4,0.66222
79.6318,0.65709,11441,0.66052
79.6328,0.65388,10404.2,0.65731
79.6338,0.65964,10034.2,0.66307
79.6348,0.65962,10787.5,0.66305
79.6368,0.65613,10764.4,0.65956
79.6498,0.65995,10837.7,0.66338
79.6518,0.65726,10838.9,0.66069
79.7,0.65844,10989.8,0.66187
79.79999,0.6614,10695.8,0.66483
79.9,0.65994,10858.3,0.66337
80,0.662,10785.6,0.66543
80.1,0.66307,10852.1,0.6665
80.2,0.66434,10865.2,0.66777
80.29999,0.66518,10939.4,0.66861
80.4,0.66664,10901.7,0.67006
80.5,0.66732,10971.2,0.67074
80.6,0.66681,11000.8,0.67023
80.7,0.66858,11013.2,0.67201
80.79999,0.66928,11056.3,0.67271
80.9,0.66957,11074.8,0.673
81,0.67081,11126.4,0.67424
81.1,0.67177,11130.6,0.6752
81.2,0.67209,11187.4,0.67552
81.29999,0.67212,11160.9,0.67555
81.4,0.67328,11202.842,0.67671
81.5,0.67406,11251.1,0.67749
81.6,0.67829,11296.4,0.68172
81.7,0.67729,11329.2,0.68072
81.79999,0.6782,11321.1,0.68163
81.9,0.67746,11349.231,0.68089
82,0.68021,11370.2,0.68364
82.1,0.6797,11454.5,0.68313
82.2,0.67829,11392.4,0.68172
82.29999,0.6821,11449.8,0.68553
82.3908,0.67958,11469.5,0.68301
82.4,0.68329,11521.9,0.68672
82.5,0.67977,11485.7,0.6832
82.6,0.68374,11515.2,0.68717
82.7,0.68494,11578.2,0.68837
82.79999,0.68631,11630.7,0.68974
82.9,0.68616,11609.8,0.68959
83,0.68911,11662.4,0.69254
83.1,0.68828,11683.1,0.69171
83.2,0.68924,11733.4,0.69267
83.29999,0.68927,11747.5,0.69269
83.4,0.68845,11723.6,0.69188
83.5,0.69321,11798.1,0.69664
83.6,0.69347,11852.4,0.6969
83.7,0.6931,11846.2,0.69653
83.79999,0.69527,11883.8,0.6987
83.9,0.69487,11882.2,0.6983
84,0.69498,11872,0.69841
84.1,0.69661,11917.9,0.70003
84.2,0.6983,12003,0.70173
84.29999,0.699,12013.5,0.70243
84.4,0.69999,11986,0.70342
84.5,0.70147,12037.8,0.7049
84.6,0.70242,12081.1,0.70585
84.7,0.70188,12039,0.70531
84.79999,0.70286,12091.2,0.70628
84.8808,0.70104,12124.6,0.70447
84.9,0.70441,12147.2,0.70784
85,0.70461,12200.9,0.70804
85.1,0.70448,12154.3,0.70791
85.2,0.70739,12176.8,0.71082
85.29999,0.7054,12195.6,0.70883